{
  "resourceType": "Bundle",
  "type": "Collection",
  "entry": [
    {
      "resource": {
        "resourceType": "Patient",
        "id": "patient-james-miller",
        "identifier": [
          {
            "system": "http://hospital.example.org",
            "value": "23456"
          }
        ],
        "name": [
          {
            "use": "official",
            "family": "Miller",
            "given": ["James"]
          }
        ],
        "gender": "male",
        "birthDate": "1958-09-18"
      }
    },
    {
      "resource": {
        "resourceType": "Condition",
        "id": "hypertension-james",
        "clinicalStatus": {
          "coding": [
            {
              "system": "http://terminology.hl7.org/CodeSystem/condition-clinical",
              "code": "active",
              "display": "Active"
            }
          ]
        },
        "verificationStatus": {
          "coding": [
            {
              "system": "http://terminology.hl7.org/CodeSystem/condition-ver-status",
              "code": "confirmed",
              "display": "Confirmed"
            }
          ]
        },
        "category": [
          {
            "coding": [
              {
                "system": "http://terminology.hl7.org/CodeSystem/condition-category",
                "code": "problem-list-item",
                "display": "Problem List Item"
              }
            ]
          }
        ],
        "code": {
          "coding": [
            {
              "system": "http://snomed.info/sct",
              "code": "38341003",
              "display": "Hypertensive disorder"
            }
          ],
          "text": "Hypertension"
        },
        "subject": {
          "reference": "Patient/patient-james-miller"
        },
        "onsetDateTime": "2022-05-03"
      }
    },
    {
      "resource": {
        "resourceType": "MedicationRequest",
        "id": "lisinopril-james",
        "status": "active",
        "intent": "order",
        "medicationCodeableConcept": {
          "coding": [
            {
              "system": "http://www.nlm.nih.gov/research/umls/rxnorm",
              "code": "314076",
              "display": "Lisinopril 10 MG Oral Tablet"
            }
          ],
          "text": "Lisinopril 10 mg once daily"
        },
        "subject": {
          "reference": "Patient/patient-james-miller"
        },
        "authoredOn": "2023-06-05",
        "reasonReference": [
          {
            "reference": "Condition/hypertension-james"
          }
        ],
        "dosageInstruction": [
          {
            "text": "Take one tablet by mouth every morning",
            "timing": {
              "repeat": {
                "frequency": 1,
                "period": 1,
                "periodUnit": "d"
              }
            }
          }
        ]
      }
    },
    {
      "resource": {
        "resourceType": "Observation",
        "id": "bp-james-pre-treatment",
        "status": "final",
        "category": [
          {
            "coding": [
              {
                "system": "http://terminology.hl7.org/CodeSystem/observation-category",
                "code": "vital-signs",
                "display": "Vital Signs"
              }
            ]
          }
        ],
        "code": {
          "coding": [
            {
              "system": "http://loinc.org",
              "code": "85354-9",
              "display": "Blood pressure panel"
            }
          ],
          "text": "Blood pressure panel"
        },
        "subject": {
          "reference": "Patient/patient-james-miller"
        },
        "effectiveDateTime": "2023-06-05T10:30:00+01:00",
        "note": [
          {
            "text": "Pre-treatment baseline measurement"
          }
        ],
        "component": [
          {
            "code": {
              "coding": [
                {
                  "system": "http://loinc.org",
                  "code": "8480-6",
                  "display": "Systolic blood pressure"
                }
              ]
            },
            "valueQuantity": {
              "value": 162,
              "unit": "mmHg",
              "system": "http://unitsofmeasure.org",
              "code": "mm[Hg]"
            }
          },
          {
            "code": {
              "coding": [
                {
                  "system": "http://loinc.org",
                  "code": "8462-4",
                  "display": "Diastolic blood pressure"
                }
              ]
            },
            "valueQuantity": {
              "value": 98,
              "unit": "mmHg",
              "system": "http://unitsofmeasure.org",
              "code": "mm[Hg]"
            }
          }
        ]
      }
    },
    {
      "resource": {
        "resourceType": "Observation",
        "id": "bp-james-post-treatment",
        "status": "final",
        "category": [
          {
            "coding": [
              {
                "system": "http://terminology.hl7.org/CodeSystem/observation-category",
                "code": "vital-signs",
                "display": "Vital Signs"
              }
            ]
          }
        ],
        "code": {
          "coding": [
            {
              "system": "http://loinc.org",
              "code": "85354-9",
              "display": "Blood pressure panel"
            }
          ],
          "text": "Blood pressure panel"
        },
        "subject": {
          "reference": "Patient/patient-james-miller"
        },
        "effectiveDateTime": "2023-07-10T11:15:00+01:00",
        "note": [
          {
            "text": "Post-treatment follow-up measurement showing response to medication"
          }
        ],
        "component": [
          {
            "code": {
              "coding": [
                {
                  "system": "http://loinc.org",
                  "code": "8480-6",
                  "display": "Systolic blood pressure"
                }
              ]
            },
            "valueQuantity": {
              "value": 138,
              "unit": "mmHg",
              "system": "http://unitsofmeasure.org",
              "code": "mm[Hg]"
            }
          },
          {
            "code": {
              "coding": [
                {
                  "system": "http://loinc.org",
                  "code": "8462-4",
                  "display": "Diastolic blood pressure"
                }
              ]
            },
            "valueQuantity": {
              "value": 84,
              "unit": "mmHg",
              "system": "http://unitsofmeasure.org",
              "code": "mm[Hg]"
            }
          }
        ]
      }
    },
    {
      "resource": {
        "resourceType": "Observation",
        "id": "bp-james-treatment-stabilized",
        "status": "final",
        "category": [
          {
            "coding": [
              {
                "system": "http://terminology.hl7.org/CodeSystem/observation-category",
                "code": "vital-signs",
                "display": "Vital Signs"
              }
            ]
          }
        ],
        "code": {
          "coding": [
            {
              "system": "http://loinc.org",
              "code": "85354-9",
              "display": "Blood pressure panel"
            }
          ],
          "text": "Blood pressure panel"
        },
        "subject": {
          "reference": "Patient/patient-james-miller"
        },
        "effectiveDateTime": "2023-08-15T10:45:00+01:00",
        "note": [
          {
            "text": "Treatment response stabilized, showing sustained improvement"
          }
        ],
        "partOf": [
          {
            "reference": "MedicationRequest/lisinopril-james"
          }
        ],
        "component": [
          {
            "code": {
              "coding": [
                {
                  "system": "http://loinc.org",
                  "code": "8480-6",
                  "display": "Systolic blood pressure"
                }
              ]
            },
            "valueQuantity": {
              "value": 132,
              "unit": "mmHg",
              "system": "http://unitsofmeasure.org",
              "code": "mm[Hg]"
            }
          },
          {
            "code": {
              "coding": [
                {
                  "system": "http://loinc.org",
                  "code": "8462-4",
                  "display": "Diastolic blood pressure"
                }
              ]
            },
            "valueQuantity": {
              "value": 80,
              "unit": "mmHg",
              "system": "http://unitsofmeasure.org",
              "code": "mm[Hg]"
            }
          }
        ]
      }
    }
  ]
}